File: module_examples/data_for_exercises/XRD_Rietveld.csv
x,y_obs,weight,y_calc,y_bkg,phase 1,phase 2
16,1163,0.00086,1154.562,1154.542,22.08458,42.58835
16.068,1103,0.00091,1154.487,1154.466,52.50438,93.15568
16.136,1070,0.00093,1154.411,1154.39,70.1423,
16.204,1114,0.0009,1154.336,1154.314,88.75321,
16.272,1070,0.00093,1154.261,1154.238,,
16.34,1097,0.00091,1154.186,1154.163,,
16.408,1092,0.00092,1154.111,1154.088,,
16.476,1083,0.00092,1154.037,1154.013,,
16.544,1087,0.00092,1153.963,1153.938,,
16.612,1074,0.00093,1153.889,1153.864,,
16.68,1116,0.0009,1153.815,1153.789,,
16.748,1074,0.00093,1153.742,1153.715,,
16.816,1097,0.00091,1153.669,1153.642,,
16.884,1119,0.00089,1153.596,1153.569,,
16.952,1123,0.00089,1153.524,1153.496,,
17.02,1114,0.0009,1153.452,1153.423,,
17.088,1125,0.00089,1153.381,1153.351,,
17.156,1070,0.00093,1153.31,1153.279,,
17.224,1111,0.0009,1153.24,1153.208,,
17.292,1069,0.00094,1153.171,1153.138,,
17.36,1099,0.00091,1153.102,1153.068,,
17.428,1090,0.00092,1153.034,1152.999,,
17.496,1131,0.00088,1152.967,1152.931,,
17.564,1081,0.00093,1152.9,1152.864,,
17.632,1061,0.00094,1152.835,1152.797,,
17.7,1148,0.00087,1152.771,1152.732,,
17.768,1106,0.0009,1152.708,1152.668,,
17.836,1103,0.00091,1152.647,1152.606,,
17.904,1151,0.00087,1152.588,1152.545,,
17.972,1035,0.00097,1152.53,1152.486,,
18.04,1058,0.00095,1152.474,1152.429,,
18.108,1101,0.00091,1152.421,1152.374,,
18.176,1089,0.00092,1152.371,1152.322,,
18.244,1142,0.00088,1152.324,1152.274,,
18.312,1117,0.0009,1152.282,1152.229,,
18.38,1077,0.00093,1152.243,1152.188,,
18.448,1077,0.00093,1152.21,1152.153,,
18.516,1065,0.00094,1152.183,1152.124,,
18.584,1111,0.0009,1152.164,1152.103,,
18.652,1093,0.00091,1152.154,1152.09,,
18.72,1063,0.00094,1152.155,1152.089,,
18.788,1097,0.00091,1152.17,1152.101,,
18.856,1123,0.00089,1152.202,1152.13,,
18.924,1071,0.00093,1152.256,1152.181,,
18.992,1124,0.00089,1152.338,1152.259,,
19.06,1161,0.00086,1152.456,1152.374,,
19.128,1020,0.00098,1152.623,1152.537,,
19.196,1122,0.00089,1152.856,1152.766,,
19.264,1069,0.00094,1153.181,1153.087,,
19.332,1120,0.00089,1153.64,1153.541,,
19.4,1110,0.0009,1154.298,1154.195,,
19.468,1090,0.00092,1155.269,1155.16,,
19.536,1153,0.00087,1156.759,1156.644,,
19.604,1109,0.0009,1159.173,1159.052,,
19.672,1140,0.00088,1163.411,1163.283,,
19.74,1133,0.00088,1171.778,1171.642,,
19.808,1197,0.00084,1191.672,1191.528,,
19.876,1267,0.00079,1257.015,1256.862,,
19.944,1577,0.00063,1593.033,1592.87,,
20.012,1565,0.00064,1505.834,1505.66,,
20.08,1238,0.00081,1240.566,1240.38,,
20.148,1161,0.00086,1187.039,1186.841,,
20.216,1189,0.00084,1169.642,1169.43,,
20.284,1106,0.0009,1162.003,1161.774,,
20.352,1115,0.0009,1157.991,1157.744,,
20.42,1174,0.00085,1155.62,1155.352,,
20.488,1133,0.00088,1154.097,1153.806,,
20.556,1096,0.00091,1153.056,1152.739,,
20.624,1120,0.00089,1152.311,1151.964,,
20.692,1184,0.00084,1151.757,1151.376,,
20.76,1143,0.00087,1151.334,1150.913,,
20.828,1127,0.00089,1151.005,1150.539,,
20.896,1119,0.00089,1150.747,1150.227,,
20.964,1195,0.00084,1150.546,1149.961,,
21.032,1142,0.00088,1150.391,1149.73,,
21.1,1193,0.00084,1150.28,1149.526,,
21.168,1138,0.00088,1150.21,1149.343,,
21.236,1174,0.00085,1150.184,1149.177,,
21.304,1191,0.00084,1150.209,1149.023,,
21.372,1125,0.00089,1150.296,1148.88,,
21.44,1119,0.00089,1150.466,1148.746,,
21.508,1152,0.00087,1150.752,1148.619,,
21.576,1148,0.00087,1151.212,1148.498,,
21.644,1211,0.00083,1151.949,1148.383,,
21.712,1151,0.00087,1153.161,1148.271,,
21.78,1211,0.00083,1155.266,1148.164,,
21.848,1268,0.00079,1159.61,1148.059,,
21.916,1276,0.00078,1182.36,1147.957,,
21.984,1499,0.00067,1361.885,1147.858,,
22.052,2353,0.00042,1888.408,1147.76,,
22.12,2380,0.00042,2061.043,1147.665,,
22.188,1561,0.00064,1550.452,1147.571,,
22.256,1243,0.0008,1226.275,1147.478,,
22.324,1223,0.00082,1164.142,1147.387,,
22.392,1194,0.00084,1155.877,1147.297,,
22.46,1166,0.00086,1152.903,1147.207,,
22.528,1117,0.0009,1151.18,1147.119,,
22.596,1250,0.0008,1150.07,1147.031,,
22.664,1227,0.00081,1149.302,1146.944,,
22.732,1095,0.00091,1148.739,1146.858,,
22.8,1152,0.00087,1148.308,1146.772,,
22.868,1109,0.0009,1147.965,1146.687,,
22.936,1185,0.00084,1147.682,1146.603,,
23.004,1123,0.00089,1147.442,1146.518,,
23.072,1195,0.00084,1147.234,1146.435,,
23.14,1136,0.00088,1147.05,1146.351,,
23.208,1160,0.00086,1146.884,1146.268,,
23.276,1238,0.00081,1146.732,1146.185,,
23.344,1210,0.00083,1146.591,1146.103,,
23.412,1153,0.00087,1146.46,1146.021,,
23.48,1159,0.00086,1146.336,1145.939,,
23.548,1140,0.00088,1146.218,1145.857,,
23.616,1148,0.00087,1146.105,1145.775,,
23.684,1162,0.00086,1145.996,1145.694,,
23.752,1171,0.00085,1145.89,1145.613,,
23.82,1116,0.0009,1145.788,1145.532,,
23.888,1169,0.00086,1145.688,1145.451,,
23.956,1166,0.00086,1145.59,1145.37,,
24.024,1168,0.00086,1145.494,1145.29,,
24.092,1136,0.00088,1145.4,1145.209,,
24.16,1189,0.00084,1145.308,1145.129,,
24.228,1124,0.00089,1145.216,1145.049,,
24.296,1227,0.00081,1145.126,1144.969,,
24.364,1151,0.00087,1145.037,1144.889,,
24.432,1159,0.00086,1144.948,1144.809,,
24.5,1190,0.00084,1144.861,1144.729,,
24.568,1163,0.00086,1144.774,1144.65,,
24.636,1140,0.00088,1144.688,1144.57,,
24.704,1173,0.00085,1144.602,1144.491,,
24.772,1184,0.00084,1144.517,1144.411,,
24.84,1159,0.00086,1144.433,1144.332,,
24.908,1143,0.00087,1144.348,1144.252,,
24.976,1162,0.00086,1144.265,1144.173,,
25.044,1143,0.00087,1144.287,1144.2,,
25.112,1151,0.00087,1144.206,1144.123,,
25.18,1159,0.00086,1144.125,1144.046,,
25.248,1180,0.00085,1144.045,1143.969,,
25.316,1166,0.00086,1143.965,1143.892,,
25.384,1143,0.00087,1143.885,1143.815,,
25.452,1107,0.0009,1143.805,1143.738,,
25.52,1177,0.00085,1143.726,1143.661,,
25.588,1144,0.00087,1143.647,1143.585,,
25.656,1096,0.00091,1143.568,1143.508,,
25.724,1165,0.00086,1143.49,1143.432,,
25.792,1198,0.00083,1143.411,1143.356,,
25.86,1165,0.00086,1143.333,1143.28,,
25.928,1150,0.00087,1143.255,1143.204,,
25.996,1209,0.00083,1143.178,1143.128,,
26.064,1158,0.00086,1143.1,1143.052,,
26.132,1136,0.00088,1143.023,1142.976,,
26.2,1158,0.00086,1142.946,1142.901,,
26.268,1130,0.00088,1142.869,1142.825,,
26.336,1164,0.00086,1142.792,1142.75,,
26.404,1173,0.00085,1142.715,1142.675,,
26.472,1148,0.00087,1142.661,1142.599,,
26.54,1146,0.00087,1142.596,1142.524,,
26.608,1098,0.00091,1142.521,1142.45,,
26.676,1155,0.00087,1142.445,1142.375,,
26.744,1178,0.00085,1142.37,1142.3,,
26.812,1102,0.00091,1142.295,1142.226,,
26.88,1097,0.00091,1142.221,1142.152,,
26.948,1153,0.00087,1142.146,1142.078,,
27.016,1167,0.00086,1142.072,1142.004,,
27.084,1183,0.00085,1141.974,1141.906,,
27.152,1158,0.00086,1141.901,1141.833,,
27.22,1130,0.00088,1141.827,1141.76,,
27.288,1185,0.00084,1141.754,1141.687,,
27.356,1131,0.00088,1141.682,1141.615,,
27.424,1173,0.00085,1141.609,1141.542,,
27.492,1161,0.00086,1141.537,1141.47,,
27.56,1167,0.00086,1141.465,1141.398,,
27.628,1101,0.00091,1141.393,1141.326,,
27.696,1141,0.00088,1141.322,1141.255,,
27.764,1141,0.00088,1141.251,1141.184,,
27.832,1134,0.00088,1141.18,1141.113,,
27.9,1129,0.00089,1141.109,1141.042,,
27.968,1200,0.00083,1141.039,1140.972,,
28.036,1170,0.00085,1140.969,1140.902,,
28.104,1146,0.00087,1140.9,1140.832,,
28.172,1103,0.00091,1140.831,1140.762,,
28.24,1117,0.0009,1141.022,1140.954,,
28.308,1143,0.00087,1140.958,1140.889,,
28.376,1143,0.00087,1140.893,1140.824,,
28.444,1143,0.00087,1140.829,1140.759,,
28.512,1119,0.00089,1140.766,1140.696,,
28.58,1156,0.00087,1140.703,1140.632,,
28.648,1138,0.00088,1140.641,1140.57,,
28.716,1098,0.00091,1140.58,1140.508,,
28.784,1188,0.00084,1140.519,1140.446,,
28.852,1104,0.00091,1140.459,1140.386,,
28.92,1197,0.00084,1140.4,1140.326,,
28.988,1172,0.00085,1140.342,1140.267,,
29.056,1143,0.00087,1140.284,1140.209,,
29.124,1129,0.00089,1140.228,1140.151,,
29.192,1157,0.00086,1140.172,1140.095,,
29.26,1134,0.00088,1140.118,1140.04,,
29.328,1163,0.00086,1140.065,1139.986,,
29.396,1110,0.0009,1140.013,1139.933,,
29.464,1186,0.00084,1139.962,1139.881,,
29.532,1164,0.00086,1139.913,1139.831,,
29.6,1161,0.00086,1139.865,1139.782,,
29.668,1103,0.00091,1139.819,1139.735,,
29.736,1164,0.00086,1139.775,1139.689,,
29.804,1115,0.0009,1139.733,1139.646,,
29.872,1150,0.00087,1139.692,1139.604,,
29.94,1128,0.00089,1139.655,1139.565,,
30.008,1102,0.00091,1139.619,1139.528,,
30.076,1148,0.00087,1139.587,1139.494,,
30.144,1148,0.00087,1139.557,1139.463,,
30.212,1178,0.00085,1139.531,1139.435,,
30.28,1204,0.00083,1139.508,1139.411,,
30.348,1132,0.00088,1139.489,1139.39,,
30.416,1142,0.00088,1139.475,1139.374,,
30.484,1153,0.00087,1139.465,1139.363,,
30.552,1135,0.00088,1139.461,1139.357,,
30.62,1157,0.00086,1139.463,1139.356,,
30.688,1158,0.00086,1139.471,1139.363,,
30.756,1164,0.00086,1139.488,1139.377,,
30.824,1139,0.00088,1139.512,1139.4,,
30.892,1115,0.0009,1139.547,1139.432,,
30.96,1174,0.00085,1139.592,1139.475,,
31.028,1185,0.00084,1139.651,1139.53,,
31.096,1198,0.00083,1139.723,1139.6,,
31.164,1111,0.0009,1139.813,1139.687,,
31.232,1140,0.00088,1139.921,1139.793,,
31.3,1096,0.00091,1140.053,1139.921,,
31.368,1162,0.00086,1140.211,1140.076,,
31.436,1150,0.00087,1140.4,1140.262,,
31.504,1145,0.00087,1140.659,1140.486,,
31.572,1138,0.00088,1140.947,1140.755,,
31.64,1170,0.00085,1141.276,1141.079,,
31.708,1180,0.00085,1141.671,1141.47,,
31.776,1147,0.00087,1142.151,1141.945,,
31.844,1142,0.00088,1142.805,1142.525,,
31.912,1128,0.00089,1143.56,1143.24,,
31.98,1167,0.00086,1144.455,1144.128,,
32.048,1168,0.00086,1145.579,1145.245,,
32.116,1183,0.00085,1147.011,1146.67,,
32.184,1167,0.00086,1148.868,1148.52,,
32.252,1166,0.00086,1151.328,1150.972,,
32.32,1103,0.00091,1154.67,1154.305,,
32.388,1141,0.00088,1159.356,1158.983,,
32.456,1167,0.00086,1166.192,1165.811,,
32.524,1176,0.00085,1176.686,1176.295,,
32.592,1205,0.00083,1193.907,1193.506,,
32.66,1213,0.00082,1224.841,1224.431,,
32.728,1269,0.00079,1287.909,1287.487,,
32.796,1423,0.0007,1440.941,1440.509,,
32.864,1911,0.00052,1864.975,1864.531,,
32.932,2331,0.00043,2292.084,2291.628,,
33,1702,0.00059,1705.633,1705.164,,
33.068,1373,0.00073,1382.875,1382.393,,
33.136,1269,0.00079,1265.093,1264.596,,
33.204,1220,0.00082,1213.914,1213.402,,
33.272,1164,0.00086,1187.764,1187.236,,
33.34,1215,0.00082,1172.76,1172.216,,
33.408,1248,0.0008,1163.397,1162.835,,
33.476,1194,0.00084,1157.18,1156.594,,
33.544,1148,0.00087,1152.842,1152.234,,
33.612,1206,0.00083,1149.695,1149.065,,
33.68,1158,0.00086,1147.342,1146.689,,
33.748,1202,0.00083,1145.532,1144.859,,
33.816,1218,0.00082,1144.115,1143.418,,
33.884,1113,0.0009,1142.987,1142.261,,
33.952,1187,0.00084,1142.073,1141.317,,
34.02,1154,0.00087,1141.324,1140.535,,
34.088,1154,0.00087,1140.704,1139.88,,
34.156,1175,0.00085,1140.187,1139.325,,
34.224,1189,0.00084,1139.753,1138.85,,
34.292,1169,0.00086,1139.389,1138.441,,
34.36,1147,0.00087,1139.081,1138.085,,
34.428,1166,0.00086,1138.824,1137.773,,
34.496,1176,0.00085,1138.609,1137.5,,
34.564,1183,0.00085,1138.432,1137.258,,
34.632,1162,0.00086,1138.289,1137.044,,
34.7,1114,0.0009,1138.179,1136.853,,
34.768,1157,0.00086,1138.098,1136.684,,
34.836,1148,0.00087,1138.048,1136.534,,
34.904,1060,0.00094,1138.026,1136.4,,
34.972,1138,0.00088,1138.035,1136.282,,
35.04,1135,0.00088,1138.13,1136.232,,
35.108,1127,0.00089,1138.206,1136.142,,
35.176,1136,0.00088,1138.408,1136.152,,
35.244,1168,0.00086,1138.569,1136.089,,
35.312,1184,0.00084,1138.781,1136.038,,
35.38,1098,0.00091,1139.053,1135.998,,
35.448,1092,0.00092,1139.398,1135.969,,
35.516,1167,0.00086,1139.835,1135.952,,
35.584,1162,0.00086,1140.389,1135.945,,
35.652,1079,0.00093,1141.095,1135.95,,
35.72,1177,0.00085,1142.005,1135.967,,
35.788,1106,0.0009,1143.199,1135.996,,
35.856,1199,0.00083,1144.798,1136.038,,
35.924,1193,0.00084,1147.002,1136.093,,
35.992,1186,0.00084,1150.153,1136.163,,
36.06,1177,0.00085,1154.879,1136.249,,
36.128,1213,0.00082,1162.685,1136.351,,
36.196,1279,0.00078,1182.582,1136.472,,
36.264,1443,0.00069,1284.491,1136.612,,
36.332,1844,0.00054,1729.607,1136.774,,
36.4,2864,0.00035,2701.243,1136.959,,
36.468,3738,0.00027,3400.701,1137.172,,
36.536,2991,0.00033,2954.859,1137.413,,
36.604,1982,0.0005,2002.949,1137.688,,
36.672,1443,0.00069,1401.769,1138,,
36.74,1273,0.00079,1209.74,1138.353,,
36.808,1209,0.00083,1170.399,1138.754,,
36.876,1165,0.00086,1160.225,1139.209,,
36.944,1142,0.00088,1155.505,1139.97,,
37.012,1175,0.00085,1152.576,1140.563,,
37.08,1159,0.00086,1150.888,1141.24,,
37.148,1122,0.00089,1149.945,1142.013,,
37.216,1081,0.00093,1149.591,1142.901,,
37.284,1146,0.00087,1149.658,1143.923,,
37.352,1118,0.00089,1150.104,1145.107,,
37.42,1083,0.00092,1150.901,1146.486,,
37.488,1157,0.00086,1152.051,1148.101,,
37.556,1149,0.00087,1153.58,1150.006,,
37.624,1113,0.0009,1155.539,1152.273,,
37.692,1100,0.00091,1158.009,1154.997,,
37.76,1150,0.00087,1161.107,1158.306,,
37.828,1101,0.00091,1165.007,1162.383,,
37.896,1195,0.00084,1169.962,1167.486,,
37.964,1099,0.00091,1176.359,1174.007,,
38.032,1164,0.00086,1184.811,1182.564,,
38.1,1139,0.00088,1196.372,1194.213,,
38.168,1204,0.00083,1213.077,1210.992,,
38.236,1275,0.00078,1239.7,1237.677,,
38.304,1409,0.00071,1292.084,1290.112,,
38.372,2017,0.0005,1473.254,1471.323,,
38.44,2713,0.00037,2405.261,2403.364,,
38.508,1978,0.00051,1560.305,1558.433,,
38.576,1566,0.00064,1609.78,1607.928,,
38.644,1781,0.00056,1892.319,1890.479,,
38.712,2484,0.0004,2543.213,2541.38,,
38.78,3660,0.00027,3668.08,3666.248,,
38.848,3787,0.00026,3679.595,3677.759,,
38.916,2509,0.0004,2547.896,2546.052,,
38.984,1774,0.00056,1880.143,1878.286,,
39.052,1493,0.00067,1569.795,1567.92,,
39.12,1329,0.00075,1413.765,1411.868,,
39.188,1233,0.00081,1326.791,1324.867,,
39.256,1307,0.00077,1274.002,1272.047,,
39.324,1226,0.00082,1239.763,1237.772,,
39.392,1258,0.00079,1216.384,1214.34,,
39.46,1187,0.00084,1199.737,1197.641,,
39.528,1239,0.00081,1187.475,1185.329,,
39.596,1224,0.00082,1178.197,1175.996,,
39.664,1208,0.00083,1171.012,1168.75,,
39.732,1227,0.00081,1165.342,1163.012,,
39.8,1211,0.00083,1160.792,1158.39,,
39.868,1227,0.00081,1157.09,1154.609,,
39.936,1170,0.00085,1154.044,1151.477,,
40.004,1196,0.00084,1151.512,1148.85,,
40.072,1215,0.00082,1149.389,1146.626,,
40.14,1185,0.00084,1147.598,1144.724,,
40.208,1197,0.00084,1146.078,1143.084,,
40.276,1118,0.00089,1144.785,1141.659,,
40.344,1192,0.00084,1143.682,1140.413,,
40.412,1176,0.00085,1142.741,1139.316,,
40.48,1151,0.00087,1141.941,1138.345,,
40.548,1260,0.00079,1141.264,1137.482,,
40.616,1307,0.00077,1140.697,1136.709,,
40.684,1256,0.0008,1140.229,1136.016,,
40.752,1202,0.00083,1139.852,1135.392,,
40.82,1194,0.00084,1139.561,1134.827,,
40.888,1185,0.00084,1139.353,1134.314,,
40.956,1183,0.00085,1139.224,1133.848,,
41.024,1173,0.00085,1139.177,1133.424,,
41.092,1154,0.00087,1139.212,1133.036,,
41.16,1192,0.00084,1139.333,1132.681,,
41.228,1164,0.00086,1139.547,1132.356,,
41.296,1142,0.00088,1139.862,1132.058,,
41.364,1169,0.00086,1140.292,1131.786,,
41.432,1118,0.00089,1140.851,1131.536,,
41.5,1135,0.00088,1141.562,1131.308,,
41.568,1157,0.00086,1142.454,1131.1,,
41.636,1190,0.00084,1143.567,1130.911,,
41.704,1194,0.00084,1144.952,1130.74,,
41.772,1182,0.00085,1146.684,1130.586,,
41.84,1222,0.00082,1148.865,1130.449,,
41.908,1177,0.00085,1151.646,1130.329,,
41.976,1175,0.00085,1155.251,1130.225,,
42.044,1218,0.00082,1160.029,1130.137,,
42.112,1200,0.00083,1166.552,1130.066,,
42.18,1242,0.00081,1175.841,1130.011,,
42.248,1229,0.00081,1190.673,1129.975,,
42.316,1382,0.00072,1227.81,1129.956,,
42.384,1464,0.00068,1385.434,1129.957,,
42.452,1810,0.00055,1954.529,1129.978,,
42.52,2726,0.00037,3133.024,1130.021,,
42.588,4511,0.00022,4205.696,1130.088,,
42.656,4706,0.00021,4075.127,1130.182,,
42.724,3419,0.00029,3054.503,1130.306,,
42.792,2461,0.00041,2177.716,1130.462,,
42.86,2750,0.00036,2346.172,1130.655,,
42.928,4245,0.00024,4130.458,1130.89,,
42.996,6930,0.00014,6912.241,1131.174,,
43.064,7926,0.00013,8083.963,1131.513,,
43.132,6153,0.00016,6549.784,1131.918,,
43.2,3823,0.00026,3983.21,1132.401,,
43.268,2348,0.00043,2188.329,1132.975,,
43.336,1700,0.00059,1463.155,1133.621,,
43.404,1403,0.00071,1270.241,1134.441,,
43.472,1301,0.00077,1221.19,1135.426,,
43.54,1221,0.00082,1200.441,1136.617,,
43.608,1208,0.00083,1188.023,1138.066,,
43.676,1177,0.00085,1180.156,1139.848,,
43.744,1171,0.00085,1175.374,1142.062,,
43.812,1196,0.00084,1172.935,1144.851,,
43.88,1145,0.00087,1172.501,1148.42,,
43.948,1192,0.00084,1174.036,1153.077,,
44.016,1148,0.00087,1177.786,1159.296,,
44.084,1140,0.00088,1184.359,1167.842,,
44.152,1204,0.00083,1194.942,1180.003,,
44.22,1213,0.00082,1211.783,1198.103,,
44.288,1239,0.00081,1239.326,1226.631,,
44.356,1313,0.00076,1287.148,1275.191,,
44.424,1382,0.00072,1378.499,1367.038,,
44.492,1606,0.00062,1580.023,1568.799,,
44.56,2098,0.00048,2117.346,2106.044,,
44.628,3524,0.00028,3467.479,3455.664,,
44.696,3234,0.00031,3239.096,3225.93,,
44.764,2046,0.00049,2004.16,1986.313,,
44.832,1553,0.00064,1565.968,1526.421,,
44.9,1456,0.00069,1466.329,1348.758,,
44.968,1499,0.00067,1548.538,1265.775,,
45.036,1729,0.00058,1672.974,1221.086,,
45.104,1751,0.00057,1657.845,1194.475,,
45.172,1501,0.00067,1503.974,1177.422,,
45.24,1328,0.00075,1327.731,1165.873,,
45.308,1244,0.0008,1218.244,1157.714,,
45.376,1218,0.00082,1173.745,1151.755,,
45.444,1161,0.00086,1158.953,1147.29,,
45.512,1087,0.00092,1152.577,1143.876,,
45.58,1149,0.00087,1148.483,1141.229,,
45.648,1163,0.00086,1145.45,1139.158,,
45.716,1185,0.00084,1143.129,1137.532,,
45.784,1125,0.00089,1141.336,1136.264,,
45.852,1212,0.00083,1139.956,1135.29,,
45.92,1108,0.0009,1138.912,1134.568,,
45.988,1111,0.0009,1138.157,1134.073,,
46.056,1152,0.00087,1137.661,1133.79,,
46.124,1155,0.00087,1137.412,1133.718,,
46.192,1125,0.00089,1137.412,1133.865,,
46.26,1171,0.00085,1137.678,1134.253,,
46.328,1126,0.00089,1138.245,1134.922,,
46.396,1128,0.00089,1139.17,1135.932,,
46.464,1096,0.00091,1140.544,1137.375,,
46.532,1197,0.00084,1142.505,1139.392,,
46.6,1145,0.00087,1145.27,1142.2,,
46.668,1130,0.00088,1149.183,1146.145,,
46.736,1178,0.00085,1154.809,1151.792,,
46.804,1166,0.00086,1163.125,1160.119,,
46.872,1180,0.00085,1175.913,1172.907,,
46.94,1162,0.00086,1196.646,1193.631,,
47.008,1243,0.0008,1232.617,1229.583,,
47.076,1277,0.00078,1299.92,1296.857,,
47.144,1446,0.00069,1430.874,1427.771,,
47.212,1621,0.00062,1634.449,1631.296,,
47.28,1683,0.00059,1680.916,1677.702,,
47.348,1485,0.00067,1484.855,1481.567,,
47.416,1379,0.00073,1328.648,1325.272,,
47.484,1311,0.00076,1246.832,1243.355,,
47.552,1228,0.00081,1203.816,1200.222,,
47.62,1212,0.00083,1179.436,1175.707,,
47.688,1122,0.00089,1164.561,1160.678,,
47.756,1113,0.0009,1154.924,1150.864,,
47.824,1119,0.00089,1148.38,1144.118,,
47.892,1118,0.00089,1143.774,1139.283,,
47.96,1085,0.00092,1140.449,1135.695,,
48.028,1121,0.00089,1138.009,1132.952,,
48.096,1116,0.0009,1136.208,1130.804,,
48.164,1139,0.00088,1134.889,1129.085,,
48.232,1118,0.00089,1133.952,1127.683,,
48.3,1143,0.00087,1133.331,1126.521,,
48.368,1064,0.00094,1132.988,1125.543,,
48.436,1198,0.00083,1132.905,1124.709,,
48.504,1115,0.0009,1133.08,1123.99,,
48.572,1108,0.0009,1133.528,1123.362,,
48.64,1135,0.00088,1134.284,1122.81,,
48.708,1192,0.00084,1135.404,1122.319,,
48.776,1114,0.0009,1136.976,1121.88,,
48.844,1181,0.00085,1139.137,1121.483,,
48.912,1142,0.00088,1142.093,1121.122,,
48.98,1185,0.00084,1146.165,1120.792,,
49.048,1182,0.00085,1151.876,1120.488,,
49.116,1230,0.00081,1160.131,1120.207,,
49.184,1261,0.00079,1173.102,1119.945,,
49.252,1393,0.00072,1201.073,1119.701,,
49.32,1575,0.00063,1300.612,1119.472,,
49.388,1763,0.00057,1673.605,1119.255,,
49.456,2453,0.00041,2656.929,1119.051,,
49.524,4233,0.00024,4212.822,1118.856,,
49.592,6134,0.00016,5361.338,1118.671,,
49.66,4746,0.00021,5132.199,1118.494,,
49.728,3650,0.00027,3910.176,1118.324,,
49.796,2115,0.00047,2553.381,1118.162,,
49.864,1505,0.00066,1683.408,1118.005,,
49.932,1353,0.00074,1314.874,1117.853,,
50,1281,0.00078,1202.827,1117.706,,
50.068,1167,0.00086,1170.705,1117.564,,
50.136,1218,0.00082,1156.982,1117.426,,
50.204,1144,0.00087,1148.432,1117.292,,
50.272,1178,0.00085,1142.41,1117.161,,
50.34,1162,0.00086,1137.978,1117.034,,
50.408,1097,0.00091,1134.68,1116.969,,
50.476,1160,0.00086,1132.073,1116.848,,
50.544,1087,0.00092,1130.009,1116.729,,
50.612,1171,0.00085,1128.347,1116.612,,
50.68,1095,0.00091,1126.99,1116.497,,
50.748,1123,0.00089,1125.871,1116.385,,
50.816,1125,0.00089,1124.94,1116.274,,
50.884,1105,0.0009,1124.161,1116.165,,
50.952,1098,0.00091,1123.509,1116.058,,
51.02,1147,0.00087,1122.964,1115.952,,
51.088,1062,0.00094,1122.511,1115.848,,
51.156,1098,0.00091,1122.142,1115.745,,
51.224,1090,0.00092,1121.851,1115.643,,
51.292,1087,0.00092,1121.634,1115.543,,
51.36,1087,0.00092,1121.491,1115.443,,
51.428,1189,0.00084,1121.417,1115.345,,
51.496,1082,0.00092,1121.433,1115.247,,
51.564,1110,0.0009,1121.553,1115.151,,
51.632,1095,0.00091,1121.791,1115.055,,
51.7,1072,0.00093,1122.177,1114.96,,
51.768,1078,0.00093,1122.753,1114.866,,
51.836,1103,0.00091,1123.588,1114.773,,
51.904,1125,0.00089,1124.784,1114.68,,
51.972,1172,0.00085,1126.529,1114.605,,
52.04,1097,0.00091,1129.1,1114.514,,
52.108,1164,0.00086,1133.455,1114.424,,
52.176,1211,0.00083,1144.417,1114.334,,
52.244,1275,0.00078,1184.386,1114.245,,
52.312,1397,0.00072,1317.228,1114.157,,
52.38,1609,0.00062,1623.085,1114.069,,
52.448,1954,0.00051,2055.767,1113.981,,
52.516,2254,0.00044,2342.497,1113.894,,
52.584,2138,0.00047,2265.254,1113.807,,
52.652,1895,0.00053,1935.46,1113.721,,
52.72,1577,0.00063,1560.96,1113.635,,
52.788,1350,0.00074,1304.208,1113.55,,
52.856,1228,0.00081,1184.117,1113.465,,
52.924,1197,0.00084,1143.366,1113.381,,
52.992,1161,0.00086,1131.262,1113.297,,
53.06,1139,0.00088,1126.522,1113.213,,
53.128,1126,0.00089,1123.716,1113.129,,
53.196,1107,0.0009,1121.734,1113.046,,
53.264,1065,0.00094,1120.253,1112.963,,
53.332,1104,0.00091,1119.11,1112.881,,
53.4,1120,0.00089,1118.201,1112.799,,
53.468,1150,0.00087,1117.463,1112.717,,
53.536,1125,0.00089,1116.851,1112.636,,
53.604,1091,0.00092,1116.334,1112.554,,
53.672,1104,0.00091,1115.89,1112.473,,
53.74,1163,0.00086,1115.504,1112.393,,
53.808,1117,0.0009,1115.163,1112.312,,
53.876,1148,0.00087,1114.859,1112.232,,
53.944,1082,0.00092,1114.585,1112.153,,
54.012,1130,0.00088,1114.336,1112.073,,
54.08,1095,0.00091,1114.108,1111.994,,
54.148,1122,0.00089,1113.97,1111.987,,
54.216,1085,0.00092,1113.774,1111.909,,
54.284,1131,0.00088,1113.591,1111.832,,
54.352,1095,0.00091,1113.419,1111.754,,
54.42,1123,0.00089,1113.257,1111.677,,
54.488,1096,0.00091,1113.119,1111.6,,
54.556,1143,0.00087,1112.972,1111.523,,
54.624,1119,0.00089,1112.714,1111.33,,
54.692,1158,0.00086,1112.589,1111.255,,
54.76,1157,0.00086,1112.46,1111.18,,
54.828,1111,0.0009,1112.335,1111.105,,
54.896,1109,0.0009,1112.215,1111.031,,
54.964,1185,0.00084,1112.098,1110.957,,
55.032,1150,0.00087,1111.985,1110.883,,
55.1,1153,0.00087,1111.875,1110.809,,
55.168,1109,0.0009,1111.768,1110.736,,
55.236,1125,0.00089,1111.751,1110.75,,
55.304,1147,0.00087,1111.652,1110.679,,
55.372,1100,0.00091,1111.553,1110.608,,
55.44,1076,0.00093,1111.457,1110.537,,
55.508,1072,0.00093,1111.363,1110.467,,
55.576,1135,0.00088,1111.271,1110.397,,
55.644,1049,0.00095,1111.18,1110.328,,
55.712,1072,0.00093,1111.092,1110.259,,
55.78,1128,0.00089,1111.005,1110.19,,
55.848,1125,0.00089,1110.92,1110.122,,
55.916,1097,0.00091,1110.836,1110.054,,
55.984,1115,0.0009,1110.755,1109.987,,
56.052,1118,0.00089,1110.675,1109.921,,
56.12,1073,0.00093,1110.597,1109.855,,
56.188,1059,0.00094,1110.52,1109.79,,
56.256,1080,0.00093,1110.338,1109.618,,
56.324,1131,0.00088,1110.267,1109.555,,
56.392,1064,0.00094,1110.198,1109.494,,
56.46,1131,0.00088,1110.131,1109.433,,
56.528,1137,0.00088,1110.067,1109.373,,
56.596,1103,0.00091,1110.007,1109.315,,
56.664,1069,0.00094,1109.949,1109.257,,
56.732,1052,0.00095,1109.896,1109.201,,
56.8,1098,0.00091,1109.848,1109.146,,
56.868,1110,0.0009,1109.807,1109.093,,
56.936,1060,0.00094,1109.773,1109.042,,
57.004,1064,0.00094,1109.75,1108.993,,
57.072,1099,0.00091,1109.742,1108.946,,
57.14,1148,0.00087,1109.756,1108.902,,
57.208,1057,0.00095,1109.816,1108.861,,
57.276,1153,0.00087,1110.027,1108.823,,
57.344,1074,0.00093,1110.821,1108.79,,
57.412,1070,0.00093,1113.356,1108.762,,
57.48,1113,0.0009,1119.237,1108.74,,
57.548,1095,0.00091,1128.397,1108.725,,
57.616,1087,0.00092,1136.794,1108.719,,
57.684,1076,0.00093,1138.742,1108.724,,
57.752,1078,0.00093,1133.992,1108.742,,
57.82,1091,0.00092,1125.932,1108.778,,
57.888,1109,0.0009,1118.283,1108.836,,
57.956,1098,0.00091,1113.358,1108.923,,
58.024,1105,0.0009,1111.106,1109.05,,
58.092,1068,0.00094,1110.416,1109.231,,
58.16,1101,0.00091,1110.389,1109.489,,
58.228,1073,0.00093,1110.643,1109.86,,
58.296,1095,0.00091,1111.119,1110.405,,
58.364,1089,0.00092,1111.895,1111.229,,
58.432,1057,0.00095,1113.163,1112.535,,
58.5,1111,0.0009,1115.338,1114.739,,
58.568,1111,0.0009,1119.399,1118.823,,
58.636,1132,0.00088,1128.063,1127.506,,
58.704,1162,0.00086,1150.725,1150.183,,
58.772,1283,0.00078,1223.258,1222.73,,
58.84,1277,0.00078,1287.358,1286.841,,
58.908,1202,0.00083,1179.216,1178.708,,
58.976,1114,0.0009,1137.009,1136.51,,
59.044,1084,0.00092,1122.782,1122.29,,
59.112,1133,0.00088,1116.675,1116.19,,
59.18,1122,0.00089,1113.544,1113.064,,
59.248,1031,0.00097,1111.717,1111.256,,
59.316,1116,0.0009,1110.564,1110.114,,
59.384,1061,0.00094,1109.79,1109.344,,
59.452,1113,0.0009,1109.241,1108.798,,
59.52,1076,0.00093,1108.836,1108.396,,
59.588,1053,0.00095,1108.527,1108.09,,
59.656,1069,0.00094,1108.286,1107.851,,
59.724,1068,0.00094,1108.095,1107.662,,
59.792,1072,0.00093,1107.91,1107.509,,
59.86,1086,0.00092,1107.784,1107.385,,
59.928,1071,0.00093,1107.667,1107.284,,
59.996,1045,0.00096,1107.585,1107.203,,
60.064,1056,0.00095,1107.52,1107.138,,
60.132,1038,0.00096,1107.469,1107.087,,
60.2,1047,0.00096,1107.432,1107.05,,
60.268,1061,0.00094,1107.407,1107.024,,
60.336,1102,0.00091,1107.394,1107.011,,
60.404,1084,0.00092,1107.394,1107.01,,
60.472,1073,0.00093,1107.405,1107.021,,
60.54,1071,0.00093,1107.43,1107.045,,
60.608,1094,0.00091,1107.468,1107.081,,
60.676,1050,0.00095,1107.521,1107.132,,
60.744,1082,0.00092,1107.589,1107.199,,
60.812,1072,0.00093,1107.674,1107.282,,
60.88,1028,0.00097,1107.779,1107.385,,
60.948,1035,0.00097,1107.905,1107.509,,
61.016,1050,0.00095,1108.056,1107.658,,
61.084,1092,0.00092,1108.235,1107.834,,
61.152,1179,0.00085,1108.446,1108.043,,
61.22,1060,0.00094,1108.696,1108.289,,
61.288,1073,0.00093,1108.989,1108.579,,
61.356,1090,0.00092,1109.335,1108.922,,
61.424,1098,0.00091,1109.744,1109.327,,
61.492,1084,0.00092,1110.229,1109.808,,
61.56,1091,0.00092,1110.806,1110.381,,
61.628,1039,0.00096,1111.498,1111.068,,
61.696,1106,0.0009,1112.332,1111.898,,
61.764,1103,0.00091,1113.346,1112.907,,
61.832,1105,0.0009,1114.593,1114.148,,
61.9,1112,0.0009,1116.143,1115.693,,
61.968,1089,0.00092,1118.098,1117.642,,
62.036,1068,0.00094,1120.606,1120.144,,
62.104,1069,0.00094,1123.887,1123.419,,
62.172,1067,0.00094,1128.284,1127.808,,
62.24,1112,0.0009,1134.347,1133.864,,
62.308,1074,0.00093,1143.006,1142.514,,
62.376,1167,0.00086,1155.917,1155.417,,
62.444,1120,0.00089,1176.229,1175.722,,
62.512,1256,0.0008,1210.364,1209.849,,
62.58,1265,0.00079,1272.252,1271.727,,
62.648,1421,0.0007,1391.253,1390.717,,
62.716,1648,0.00061,1599.077,1598.53,,
62.784,1678,0.0006,1745.121,1744.562,,
62.852,1555,0.00064,1580.005,1579.432,,
62.92,1448,0.00069,1378.597,1378.01,,
62.988,1328,0.00075,1265.886,1265.285,,
63.056,1241,0.00081,1207.187,1206.57,,
63.124,1194,0.00084,1174.658,1174.024,,
63.192,1143,0.00087,1155.247,1154.594,,
63.26,1128,0.00089,1142.908,1142.236,,
63.328,1144,0.00087,1134.667,1133.973,,
63.396,1152,0.00087,1128.95,1128.233,,
63.464,1107,0.0009,1124.873,1124.13,,
63.532,1167,0.00086,1121.913,1121.143,,
63.6,1090,0.00092,1119.747,1118.947,,
63.668,1125,0.00089,1118.173,1117.34,,
63.736,1116,0.0009,1117.058,1116.19,,
63.804,1044,0.00096,1116.32,1115.412,,
63.872,1123,0.00089,1115.908,1114.955,,
63.94,1061,0.00094,1115.796,1114.794,,
64.008,1077,0.00093,1115.98,1114.924,,
64.076,1083,0.00092,1116.478,1115.361,,
64.144,1113,0.0009,1117.331,1116.144,,
64.212,1113,0.0009,1118.608,1117.342,,
64.28,1089,0.00092,1120.424,1119.068,,
64.348,1170,0.00085,1122.955,1121.496,,
64.416,1089,0.00092,1126.485,1124.906,,
64.484,1139,0.00088,1131.472,1129.752,,
64.552,1138,0.00088,1138.696,1136.811,,
64.62,1088,0.00092,1149.56,1147.476,,
64.688,1123,0.00089,1166.762,1164.438,,
64.756,1177,0.00085,1195.979,1193.361,,
64.824,1267,0.00079,1250.515,1247.526,,
64.892,1392,0.00072,1364.983,1361.53,,
64.96,1663,0.0006,1625.403,1621.349,,
65.028,1952,0.00051,2015.157,2010.296,,
65.096,1816,0.00055,1832.771,1826.718,,
65.164,1498,0.00067,1471.923,1463.632,,
65.232,1279,0.00078,1306.015,1291.914,,
65.3,1234,0.00081,1245.365,1214.499,,
65.368,1194,0.00084,1248.23,1175.251,,
65.436,1199,0.00083,1307.989,1153.053,,
65.504,1262,0.00079,1410.795,1139.39,,
65.572,1450,0.00069,1511.524,1130.394,,
65.64,1514,0.00066,1549.625,1124.196,,
65.708,1503,0.00067,1509.505,1119.74,,
65.776,1451,0.00069,1419.704,1116.429,,
65.844,1290,0.00078,1313.327,1113.902,,
65.912,1216,0.00082,1223.05,1111.931,,
65.98,1186,0.00084,1164.062,1110.365,,
66.048,1109,0.0009,1133.371,1109.102,,
66.116,1107,0.0009,1120.124,1108.07,,
66.184,1100,0.00091,1114.758,1107.218,,
66.252,1178,0.00085,1112.211,1106.51,,
66.32,1138,0.00088,1110.622,1105.917,,
66.388,1095,0.00091,1109.449,1105.421,,
66.456,1099,0.00091,1108.531,1105.005,,
66.524,1101,0.00091,1107.8,1104.657,,
66.592,1089,0.00092,1107.215,1104.368,,
66.66,1117,0.0009,1106.745,1104.132,,
66.728,1086,0.00092,1106.372,1103.944,,
66.796,1063,0.00094,1106.08,1103.8,,
66.864,1089,0.00092,1105.859,1103.697,,
66.932,1093,0.00091,1105.703,1103.634,,
67,1119,0.00089,1105.606,1103.61,,
67.068,1082,0.00092,1105.566,1103.626,,
67.136,1094,0.00091,1105.58,1103.683,,
67.204,1073,0.00093,1105.65,1103.783,,
67.272,1058,0.00095,1105.777,1103.928,,
67.34,1099,0.00091,1105.963,1104.124,,
67.408,1060,0.00094,1106.214,1104.376,,
67.476,1162,0.00086,1106.536,1104.689,,
67.544,1105,0.0009,1106.936,1105.074,,
67.612,1105,0.0009,1107.427,1105.542,,
67.68,1060,0.00094,1108.022,1106.106,,
67.748,1078,0.00093,1108.739,1106.784,,
67.816,1086,0.00092,1109.601,1107.599,,
67.884,1137,0.00088,1110.637,1108.581,,
67.952,1139,0.00088,1111.887,1109.768,,
68.02,1122,0.00089,1113.402,1111.211,,
68.088,1119,0.00089,1115.25,1112.977,,
68.156,1143,0.00087,1117.524,1115.159,,
68.224,1094,0.00091,1120.353,1117.885,,
68.292,1078,0.00093,1123.921,1121.335,,
68.36,1087,0.00092,1128.472,1125.773,,
68.428,1080,0.00093,1134.44,1131.592,,
68.496,1115,0.0009,1142.401,1139.395,,
68.564,1139,0.00088,1153.343,1150.146,,
68.632,1138,0.00088,1168.866,1165.453,,
68.7,1136,0.00088,1191.77,1188.11,,
68.768,1194,0.00084,1227.181,1223.238,,
68.836,1228,0.00081,1284.822,1280.555,,
68.904,1349,0.00074,1382.983,1378.338,,
68.972,1618,0.00062,1548.782,1543.698,,
69.04,1798,0.00056,1770.553,1764.952,,
69.108,1817,0.00055,1856.821,1850.605,,
69.176,1726,0.00058,1682.702,1675.75,,
69.244,1489,0.00067,1474.835,1466.987,,
69.312,1318,0.00076,1340.734,1331.786,,
69.38,1278,0.00078,1263.37,1253.046,,
69.448,1241,0.00081,1218.167,1206.09,,
69.516,1159,0.00086,1191.013,1176.636,,
69.584,1225,0.00082,1174.821,1157.197,,
69.652,1217,0.00082,1166.939,1143.783,,
69.72,1210,0.00083,1169.925,1134.172,,
69.788,1303,0.00077,1196.603,1127.062,,
69.856,1299,0.00077,1276.622,1121.658,,
69.924,1490,0.00067,1450.994,1117.455,,
69.992,1690,0.00059,1738.536,1114.12,,
70.06,2087,0.00048,2087.699,1111.426,,
70.128,2351,0.00043,2363.991,1109.217,,
70.196,2586,0.00039,2434.015,1107.381,,
70.264,2383,0.00042,2299.716,1105.834,,
70.332,2233,0.00045,2040.898,1104.518,,
70.4,1856,0.00054,1739.224,1103.387,,
70.468,1605,0.00062,1476.603,1102.405,,
70.536,1434,0.0007,1295.401,1101.546,,
70.604,1329,0.00075,1193.724,1100.789,,
70.672,1199,0.00083,1146.466,1100.116,,
70.74,1200,0.00083,1127.128,1099.514,,
70.808,1173,0.00085,1119.042,1098.973,,
70.876,1119,0.00089,1114.863,1098.483,,
70.944,1129,0.00089,1112.121,1098.037,,
71.012,1170,0.00085,1110.088,1097.629,,
71.08,1115,0.0009,1108.518,1097.254,,
71.148,1105,0.0009,1107.292,1096.908,,
71.216,1095,0.00091,1106.337,1096.587,,
71.284,1043,0.00096,1105.604,1096.288,,
71.352,1071,0.00093,1105.059,1096.009,,
71.42,1096,0.00091,1104.681,1095.747,,
71.488,1108,0.0009,1104.46,1095.5,,
71.556,1089,0.00092,1104.393,1095.267,,
71.624,1131,0.00088,1104.483,1095.047,,
71.692,1100,0.00091,1104.743,1094.837,,
71.76,1082,0.00092,1105.196,1094.638,,
71.828,1090,0.00092,1105.877,1094.447,,
71.896,1091,0.00092,1106.837,1094.265,,
71.964,1105,0.0009,1108.152,1094.09,,
72.032,1128,0.00089,1109.938,1093.922,,
72.1,1001,0.001,1112.396,1093.76,,
72.168,1061,0.00094,1116.009,1093.604,,
72.236,1124,0.00089,1122.366,1093.452,,
72.304,1177,0.00085,1136.869,1093.306,,
72.372,1145,0.00087,1174.747,1093.164,,
72.44,1210,0.00083,1268.053,1093.025,,
72.508,1250,0.0008,1461.426,1092.891,,
72.576,1438,0.0007,1780.859,1092.76,,
72.644,1772,0.00056,2185.186,1092.632,,
72.712,2423,0.00041,2544.374,1092.507,,
72.78,3001,0.00033,2699.457,1092.384,,
72.848,2746,0.00036,2609.919,1092.265,,
72.916,2507,0.0004,2352.717,1092.147,,
72.984,2120,0.00047,2012.75,1092.032,,
73.052,1782,0.00056,1680.187,1091.919,,
73.12,1382,0.00072,1422.899,1091.808,,
73.188,1239,0.00081,1259.694,1091.698,,
73.256,1190,0.00084,1173.768,1091.59,,
73.324,1124,0.00089,1135.253,1091.484,,
73.392,1106,0.0009,1119.359,1091.379,,
73.46,1133,0.00088,1112.273,1091.276,,
73.528,1116,0.0009,1108.3,1091.174,,
73.596,1092,0.00092,1105.556,1091.073,,
73.664,1107,0.0009,1103.46,1090.973,,
73.732,1094,0.00091,1101.793,1090.875,,
73.8,1079,0.00093,1100.439,1090.777,,
73.868,1169,0.00086,1099.321,1090.681,,
73.936,1081,0.00093,1098.385,1090.585,,
74.004,1003,0.001,1097.593,1090.49,,
74.072,1088,0.00092,1096.916,1090.396,,
74.14,1129,0.00089,1096.331,1090.303,,
74.208,1094,0.00091,1095.822,1090.211,,
74.276,1054,0.00095,1095.376,1090.119,,
74.344,1104,0.00091,1094.983,1090.028,,
74.412,1076,0.00093,1094.635,1089.938,,
74.48,1088,0.00092,1094.326,1089.848,,
74.548,1100,0.00091,1094.05,1089.759,,
74.616,1099,0.00091,1093.805,1089.67,,
74.684,1069,0.00094,1093.585,1089.582,,
74.752,1044,0.00096,1093.389,1089.495,,
74.82,1106,0.0009,1093.215,1089.408,,
74.888,1099,0.00091,1093.062,1089.321,,
74.956,1078,0.00093,1092.927,1089.235,,
75.024,1082,0.00092,1092.81,1089.149,,
75.092,1098,0.00091,1092.711,1089.064,,
75.16,1059,0.00094,1092.628,1088.979,,
75.228,1055,0.00095,1092.564,1088.894,,
75.296,1075,0.00093,1092.516,1088.81,,
75.364,1102,0.00091,1092.487,1088.726,,
75.432,1095,0.00091,1092.477,1088.643,,
75.5,1061,0.00094,1092.487,1088.56,,
75.568,1067,0.00094,1092.519,1088.477,,
75.636,1053,0.00095,1092.575,1088.394,,
75.704,1099,0.00091,1092.657,1088.312,,
75.772,1038,0.00096,1092.769,1088.23,,
75.84,1121,0.00089,1092.915,1088.148,,
75.908,1127,0.00089,1093.099,1088.066,,
75.976,1040,0.00096,1093.328,1087.985,,
76.044,1066,0.00094,1093.609,1087.904,,
76.112,1038,0.00096,1093.952,1087.823,,
76.18,1032,0.00097,1094.369,1087.742,,
76.248,1091,0.00092,1094.876,1087.662,,
76.316,1096,0.00091,1095.492,1087.581,,
76.384,1078,0.00093,1096.244,1087.501,,
76.452,1076,0.00093,1097.166,1087.421,,
76.52,1059,0.00094,1098.306,1087.342,,
76.588,1094,0.00091,1099.726,1087.262,,
76.656,1093,0.00091,1101.52,1087.183,,
76.724,1082,0.00092,1103.83,1087.104,,
76.792,1085,0.00092,1106.947,1087.025,,
76.86,1124,0.00089,1111.68,1086.946,,
76.928,1198,0.00083,1120.603,1086.867,,
76.996,1177,0.00085,1141.206,1086.788,,
77.064,1211,0.00083,1191.228,1086.71,,
77.132,1192,0.00084,1302.156,1086.632,,
77.2,1382,0.00072,1510.816,1086.553,,
77.268,1495,0.00067,1831.545,1086.475,,
77.336,1881,0.00053,2221.332,1086.397,,
77.404,2372,0.00042,2568.701,1086.32,,
77.472,2714,0.00037,2739.577,1086.242,,
77.54,2677,0.00037,2688.583,1086.164,,
77.608,2496,0.0004,2474.143,1086.087,,
77.676,2261,0.00044,2166.462,1086.01,,
77.744,1925,0.00052,1836.184,1085.932,,
77.812,1581,0.00063,1551.198,1085.855,,
77.88,1419,0.0007,1346.029,1085.778,,
77.948,1281,0.00078,1220.847,1085.701,,
78.016,1305,0.00077,1155.528,1085.624,,
78.084,1318,0.00076,1125.494,1085.547,,
78.152,1306,0.00077,1112.317,1085.471,,
78.22,1295,0.00077,1105.975,1085.394,,
78.288,1240,0.00081,1102.225,1085.318,,
78.356,1173,0.00085,1099.571,1085.241,,
78.424,1142,0.00088,1097.514,1085.165,,
78.492,1111,0.0009,1095.857,1085.089,,
78.56,1091,0.00092,1094.495,1085.012,,
78.628,1121,0.00089,1093.357,1084.936,,
78.696,1117,0.0009,1092.395,1084.86,,
78.764,1101,0.00091,1091.572,1084.784,,
78.832,1100,0.00091,1090.86,1084.708,,
78.9,1109,0.0009,1090.239,1084.632,,
78.968,1076,0.00093,1089.691,1084.557,,
79.036,1092,0.00092,1089.205,1084.481,,
79.104,1097,0.00091,1088.77,1084.405,,
79.172,1086,0.00092,1088.379,1084.329,,
79.24,1108,0.0009,1088.024,1084.254,,
79.308,1040,0.00096,1087.7,1084.178,,
79.376,1066,0.00094,1087.403,1084.103,,
79.444,1070,0.00093,1087.129,1084.028,,
79.512,1078,0.00093,1086.875,1083.952,,
79.58,1061,0.00094,1086.639,1083.877,,
79.648,1073,0.00093,1086.419,1083.802,,
79.716,1030,0.00097,1086.212,1083.727,,
79.784,1080,0.00093,1085.98,1083.613,,
79.852,1076,0.00093,1085.797,1083.538,,
79.92,1055,0.00095,1085.624,1083.464,,
79.988,1061,0.00094,1085.46,1083.389,,
80.056,1109,0.0009,1085.304,1083.314,,
80.124,1077,0.00093,1085.156,1083.24,,
80.192,1085,0.00092,1085.015,1083.165,,
80.26,1083,0.00092,1084.88,1083.091,,
80.328,1059,0.00094,1084.752,1083.017,,
80.396,1069,0.00094,1084.63,1082.942,,
80.464,1046,0.00096,1084.515,1082.868,,
80.532,1058,0.00095,1084.405,1082.793,,
80.6,1041,0.00096,1084.302,1082.719,,
80.668,1069,0.00094,1084.206,1082.645,,
80.736,1088,0.00092,1084.117,1082.571,,
80.804,1052,0.00095,1084.037,1082.496,,
80.872,1151,0.00087,1083.968,1082.422,,
80.94,1031,0.00097,1083.911,1082.348,,
81.008,1037,0.00096,1083.872,1082.274,,
81.076,1072,0.00093,1083.863,1082.2,,
81.144,1049,0.00095,1083.923,1082.126,,
81.212,1093,0.00091,1084.16,1082.052,,
81.28,1064,0.00094,1084.835,1081.978,,
81.348,1043,0.00096,1086.422,1081.877,,
81.416,1081,0.00093,1089.691,1081.804,,
81.484,1108,0.0009,1095.225,1081.73,,
81.552,1081,0.00093,1102.945,1081.656,,
81.62,1089,0.00092,1111.568,1081.583,,
81.688,1135,0.00088,1118.65,1081.509,,
81.756,1123,0.00089,1121.715,1081.436,,
81.824,1159,0.00086,1120.222,1081.362,,
81.892,1155,0.00087,1115.413,1081.288,,
81.96,1162,0.00086,1108.636,1081.215,,
82.028,1173,0.00085,1101.212,1081.141,,
82.096,1162,0.00086,1094.5,1081.068,,
82.164,1211,0.00083,1089.333,1080.995,,
82.232,1257,0.0008,1085.881,1080.921,,
82.3,1332,0.00075,1083.861,1080.848,,
82.368,1345,0.00074,1082.796,1080.774,,
82.436,1311,0.00076,1082.256,1080.701,,
82.504,1242,0.00081,1081.96,1080.628,,
82.572,1152,0.00087,1081.765,1080.554,,
82.64,1186,0.00084,1081.612,1080.481,,
82.708,1081,0.00093,1081.48,1080.408,,
82.776,1126,0.00089,1081.361,1080.334,,
82.844,1108,0.0009,1081.254,1080.261,,
82.912,1086,0.00092,1081.156,1080.188,,
82.98,1084,0.00092,1081.066,1080.115,,
83.048,1136,0.00088,1080.981,1080.042,,
83.116,1091,0.00092,1080.896,1079.968,,
83.184,1115,0.0009,1080.809,1079.895,,
83.252,1111,0.0009,1080.718,1079.822,,
83.32,1086,0.00092,1080.626,1079.749,,
83.388,1163,0.00086,1080.533,1079.676,,
83.456,1122,0.00089,1080.441,1079.603,,
83.524,1123,0.00089,1080.352,1079.53,,
83.592,1084,0.00092,1080.266,1079.457,,
83.66,1015,0.00099,1080.184,1079.384,,
83.728,1131,0.00088,1080.105,1079.311,,
83.796,1116,0.0009,1080.029,1079.238,,
83.864,1079,0.00093,1079.954,1079.165,,
83.932,1050,0.00095,1079.88,1079.092,,
84,1052,0.00095,1079.808,1079.019,,
84.068,1063,0.00094,1079.737,1078.946,,
84.136,1076,0.00093,1079.666,1078.873,,
84.204,1110,0.0009,1079.597,1078.8,,
84.272,1075,0.00093,1079.529,1078.727,,
84.34,1076,0.00093,1079.461,1078.654,,
84.408,1053,0.00095,1079.395,1078.581,,
84.476,1041,0.00096,1079.33,1078.509,,
84.544,1055,0.00095,1079.266,1078.436,,
84.612,1075,0.00093,1079.203,1078.363,,
84.68,1072,0.00093,1079.141,1078.29,,
84.748,1090,0.00092,1079.08,1078.217,,
84.816,1046,0.00096,1079.02,1078.145,,
84.884,1083,0.00092,1078.962,1078.072,,
84.952,1100,0.00091,1078.905,1077.999,,
85.02,1082,0.00092,1078.85,1077.926,,
85.088,1074,0.00093,1078.796,1077.854,,
85.156,1043,0.00096,1078.744,1077.781,,
85.224,1074,0.00093,1078.694,1077.708,,
85.292,1049,0.00095,1078.646,1077.636,,
85.36,1074,0.00093,1078.6,1077.563,,
85.428,1089,0.00092,1078.556,1077.49,,
85.496,1075,0.00093,1078.515,1077.418,,
85.564,1052,0.00095,1078.476,1077.345,,
85.632,1027,0.00097,1078.441,1077.272,,
85.7,1078,0.00093,1078.409,1077.2,,
85.768,1079,0.00093,1078.38,1077.127,,
85.836,1068,0.00094,1078.356,1077.055,,
85.904,1034,0.00097,1078.336,1076.982,,
85.972,1044,0.00096,1078.321,1076.909,,
86.04,984,0.00102,1078.312,1076.837,,
86.108,1068,0.00094,1078.309,1076.764,,
86.176,1052,0.00095,1078.314,1076.692,,
86.244,1034,0.00097,1078.327,1076.619,,
86.312,1071,0.00093,1078.348,1076.547,,
86.38,1082,0.00092,1078.381,1076.474,,
86.448,1088,0.00092,1078.426,1076.402,,
86.516,1069,0.00094,1078.485,1076.329,,
86.584,1015,0.00099,1078.561,1076.257,,
86.652,1108,0.0009,1078.656,1076.185,,
86.72,1095,0.00091,1078.774,1076.112,,
86.788,1080,0.00093,1078.92,1076.04,,
86.856,1050,0.00095,1079.098,1075.967,,
86.924,1003,0.001,1079.316,1075.895,,
86.992,1055,0.00095,1079.583,1075.823,,
87.06,1088,0.00092,1079.91,1075.75,,
87.128,1043,0.00096,1080.312,1075.678,,
87.196,1120,0.00089,1080.81,1075.605,,
87.264,1081,0.00093,1081.436,1075.533,,
87.332,1070,0.00093,1082.248,1075.461,,
87.4,1077,0.00093,1083.384,1075.389,,
87.468,1121,0.00089,1085.209,1075.316,,
87.536,1034,0.00097,1088.668,1075.244,,
87.604,1119,0.00089,1095.933,1075.172,,
87.672,1084,0.00092,1111.189,1075.099,,
87.74,1130,0.00088,1140.897,1075.027,,
87.808,1163,0.00086,1192.332,1074.955,,
87.876,1169,0.00086,1269.687,1074.883,,
87.944,1265,0.00079,1368.966,1074.81,,
88.012,1354,0.00074,1474.693,1074.738,,
88.08,1591,0.00063,1561.651,1074.666,,
88.148,1642,0.00061,1605.173,1074.594,,
88.216,1712,0.00058,1598.449,1074.522,,
88.284,1557,0.00064,1553.428,1074.449,,
88.352,1522,0.00066,1485.391,1074.377,,
88.42,1478,0.00068,1408.018,1074.305,,
88.488,1357,0.00074,1336.15,1074.233,,
88.556,1269,0.00079,1281.432,1074.161,,
88.624,1238,0.00081,1247.446,1074.089,,
88.692,1191,0.00084,1229.926,1074.016,,
88.76,1247,0.0008,1219.932,1073.944,,
88.828,1190,0.00084,1209.488,1073.872,,
88.896,1156,0.00087,1195.516,1073.8,,
88.964,1115,0.0009,1178.063,1073.728,,
89.032,1152,0.00087,1158.065,1073.656,,
89.1,1125,0.00089,1137.474,1073.584,,
89.168,1133,0.00088,1118.804,1073.512,,
89.236,1106,0.0009,1103.789,1073.44,,
89.304,1044,0.00096,1092.982,1073.368,,
89.372,1073,0.00093,1085.979,1073.296,,
89.44,1038,0.00096,1081.841,1073.224,,
89.508,1045,0.00096,1079.54,1073.152,,
89.576,1075,0.00093,1078.261,1073.08,,
89.644,1085,0.00092,1077.49,1073.008,,
89.712,1125,0.00089,1076.961,1072.936,,
89.78,1077,0.00093,1076.552,1072.864,,
89.848,1105,0.0009,1076.213,1072.792,,
89.916,1044,0.00096,1075.921,1072.72,,
89.984,1075,0.00093,1075.666,1072.648,,
90.052,1049,0.00095,1075.44,1072.576,,
90.12,1089,0.00092,1075.241,1072.504,,
90.188,1059,0.00094,1075.062,1072.432,,
90.256,1027,0.00097,1074.903,1072.36,,
90.324,1094,0.00091,1074.761,1072.288,,
90.392,1063,0.00094,1074.633,1072.216,,
90.46,1066,0.00094,1074.519,1072.144,,
90.528,1116,0.0009,1074.417,1072.073,,
90.596,1033,0.00097,1074.328,1072.001,,
90.664,1048,0.00095,1074.249,1071.929,,
90.732,1025,0.00098,1074.182,1071.857,,
90.8,1068,0.00094,1074.125,1071.785,,
90.868,1115,0.0009,1074.079,1071.713,,
90.936,1038,0.00096,1074.045,1071.641,,
91.004,1100,0.00091,1074.022,1071.57,,
91.072,1088,0.00092,1074.011,1071.498,,
91.14,1061,0.00094,1074.014,1071.426,,
91.208,1117,0.0009,1074.032,1071.354,,
91.276,1067,0.00094,1074.065,1071.282,,
91.344,1084,0.00092,1074.116,1071.211,,
91.412,1044,0.00096,1074.187,1071.139,,
91.48,1069,0.00094,1074.281,1071.067,,
91.548,1049,0.00095,1074.369,1070.963,,
91.616,1092,0.00092,1074.52,1070.892,,
91.684,1043,0.00096,1074.707,1070.82,,
91.752,1077,0.00093,1074.937,1070.749,,
91.82,1042,0.00096,1075.218,1070.677,,
91.888,1067,0.00094,1075.56,1070.605,,
91.956,1054,0.00095,1075.98,1070.534,,
92.024,1077,0.00093,1076.495,1070.462,,
92.092,1036,0.00097,1077.139,1070.391,,
92.16,1098,0.00091,1077.972,1070.319,,
92.228,1094,0.00091,1079.132,1070.248,,
92.296,1114,0.0009,1080.944,1070.176,,
92.364,1054,0.00095,1084.15,1070.105,,
92.432,1083,0.00092,1090.268,1070.034,,
92.5,1129,0.00089,1102,1069.962,,
92.568,1156,0.00087,1123.413,1069.891,,
92.636,1126,0.00089,1159.481,1069.819,,
92.704,1190,0.00084,1214.704,1069.748,,
92.772,1181,0.00085,1290.949,1069.676,,
92.84,1267,0.00079,1385.129,1069.605,,
92.908,1415,0.00071,1487.555,1069.533,,
92.976,1473,0.00068,1583.148,1069.462,,
93.044,1509,0.00066,1657.034,1069.391,,
93.112,1580,0.00063,1697.913,1069.319,,
93.18,1701,0.00059,1697.622,1069.248,,
93.248,1785,0.00056,1656.15,1069.176,,
93.316,1666,0.0006,1584.456,1069.105,,
93.384,1562,0.00064,1496.902,1069.034,,
93.452,1433,0.0007,1404.84,1068.962,,
93.52,1426,0.0007,1317.524,1068.891,,
93.588,1334,0.00075,1242.596,1068.819,,
93.656,1223,0.00082,1184.174,1068.748,,
93.724,1138,0.00088,1142.697,1068.677,,
93.792,1103,0.00091,1116.28,1068.605,,
93.86,1107,0.0009,1102.082,1068.534,,
93.928,1096,0.00091,1097.467,1068.463,,
93.996,1152,0.00087,1100.621,1068.391,,
94.064,1151,0.00087,1110.398,1068.32,,
94.132,1110,0.0009,1125.585,1068.249,,
94.2,1132,0.00088,1144.074,1068.177,,
94.268,1167,0.00086,1162.47,1068.106,,
94.336,1190,0.00084,1176.49,1068.035,,
94.404,1228,0.00081,1182.624,1067.964,,
94.472,1240,0.00081,1180.247,1067.892,,
94.54,1189,0.00084,1171.215,1067.821,,
94.608,1160,0.00086,1157.702,1067.75,,
94.676,1157,0.00086,1141.501,1067.679,,
94.744,1175,0.00085,1124.59,1067.607,,
94.812,1136,0.00088,1108.975,1067.536,,
94.88,1140,0.00088,1096.015,1067.465,,
94.948,1071,0.00093,1086.247,1067.394,,
95.016,1083,0.00092,1079.53,1067.322,,
95.084,1073,0.00093,1075.289,1067.251,,
95.152,1096,0.00091,1072.791,1067.18,,
95.22,1063,0.00094,1071.366,1067.109,,
95.288,1084,0.00092,1070.534,1067.037,,
95.356,1065,0.00094,1070,1066.966,,
95.424,1084,0.00092,1069.611,1066.895,,
95.492,1040,0.00096,1069.297,1066.824,,
95.56,1033,0.00097,1069.026,1066.753,,
95.628,1087,0.00092,1068.784,1066.682,,
95.696,1061,0.00094,1068.564,1066.61,,
95.764,1046,0.00096,1068.362,1066.539,,
95.832,1068,0.00094,1068.175,1066.468,,
95.9,1028,0.00097,1068.001,1066.397,,
95.968,1106,0.0009,1067.836,1066.326,,
96.036,1042,0.00096,1067.681,1066.255,,
96.104,1065,0.00094,1067.534,1066.184,,
96.172,1062,0.00094,1067.393,1066.112,,
96.24,1069,0.00094,1067.259,1066.041,,
96.308,1070,0.00093,1067.13,1065.97,,
96.376,1097,0.00091,1067.005,1065.899,,
96.444,1045,0.00096,1066.878,1065.828,,
96.512,1021,0.00098,1066.762,1065.757,,
96.58,1063,0.00094,1066.645,1065.686,,
96.648,1016,0.00098,1066.534,1065.615,,
96.716,1006,0.00099,1066.427,1065.544,,
96.784,1112,0.0009,1066.321,1065.473,,
96.852,1055,0.00095,1066.218,1065.402,,
96.92,1092,0.00092,1066.117,1065.331,,
96.988,1063,0.00094,1066.017,1065.26,,
97.056,1019,0.00098,1065.92,1065.189,,
97.124,1108,0.0009,1065.823,1065.118,,
97.192,1114,0.0009,1065.729,1065.047,,
97.26,1075,0.00093,1065.635,1064.975,,
97.328,1093,0.00091,1065.543,1064.904,,
97.396,1120,0.00089,1065.452,1064.833,,
97.464,1125,0.00089,1065.362,1064.762,,
97.532,1114,0.0009,1065.273,1064.692,,
97.6,1101,0.00091,1065.185,1064.621,,
97.668,1030,0.00097,1065.098,1064.55,,
97.736,1059,0.00094,1065.011,1064.479,,
97.804,1086,0.00092,1064.925,1064.408,,
97.872,1074,0.00093,1064.84,1064.337,,
97.94,1059,0.00094,1064.756,1064.266,,
98.008,1052,0.00095,1064.672,1064.195,,
98.076,1067,0.00094,1064.588,1064.124,,
98.144,1059,0.00094,1064.506,1064.053,,
98.212,1033,0.00097,1064.423,1063.982,,
98.28,1119,0.00089,1064.342,1063.911,,
98.348,1061,0.00094,1064.26,1063.84,,
98.416,1054,0.00095,1064.179,1063.769,,
98.484,1036,0.00097,1064.099,1063.698,,
98.552,1061,0.00094,1064.019,1063.627,,
98.62,1075,0.00093,1063.939,1063.557,,
98.688,1100,0.00091,1063.859,1063.486,,
98.756,1072,0.00093,1063.78,1063.415,,
98.824,1088,0.00092,1063.701,1063.344,,
98.892,1108,0.0009,1063.623,1063.273,,
98.96,1120,0.00089,1063.545,1063.202,,
99.028,1142,0.00088,1063.467,1063.131,,
99.096,1157,0.00086,1063.389,1063.061,,
99.164,1099,0.00091,1063.311,1062.99,,
99.232,1088,0.00092,1063.234,1062.919,,
99.3,1117,0.0009,1063.157,1062.848,,
99.368,1131,0.00088,1063.08,1062.777,,
99.436,1100,0.00091,1063.003,1062.707,,
99.504,1086,0.00092,1062.927,1062.636,,
99.572,1058,0.00095,1062.851,1062.565,,
99.64,1019,0.00098,1062.775,1062.494,,
99.708,1071,0.00093,1062.699,1062.423,,
99.776,1139,0.00088,1062.623,1062.353,,
99.844,1087,0.00092,1062.547,1062.282,,
99.912,1080,0.00093,1062.472,1062.211,,
99.963,1193,0.00084,1062.415,1062.158,,